Folder: MTL_in_MAT/data_set/Bachir

Note: data_set/Bachir/Bachir.txt
Sample1: [Composition: [water-cement ratio:0.42,superplasticizer (kg/m^3):13.5,Granular Squeleton (kg/m^3):1743.02], Property: [compressive strength Mpa:81.0]]
Sample2: [Composition: [water-cement ratio:0.44,superplasticizer (kg/m^3):13.5,Granular Squeleton (kg/m^3):1735.97], Property: [compressive strength Mpa:82.7]]
Sample3: [Composition: [water-cement ratio:0.47,superplasticizer (kg/m^3):13.5,Granular Squeleton (kg/m^3):1728.92], Property: [compressive strength Mpa:84.0]]
Sample4: [Composition: [water-cement ratio:0.6,superplasticizer (kg/m^3):5.25,Granular Squeleton (kg/m^3):1773.4], Property: [compressive strength Mpa:53.8]]
Sample5: [Composition: [water-cement ratio:0.63,superplasticizer (kg/m^3):5.25,Granular Squeleton (kg/m^3):1767.9], Property: [compressive strength Mpa:56.8]]
Sample6: [Composition: [water-cement ratio:0.67,superplasticizer (kg/m^3):5.25,Granular Squeleton (kg/m^3):1762.4], Property: [compressive strength Mpa:57.7]]
Sample7: [Composition: [water-cement ratio:0.71,superplasticizer (kg/m^3):5.25,Granular Squeleton (kg/m^3):1756.9], Property: [compressive strength Mpa:60.3]]
Sample8: [Composition: [water-cement ratio:0.4,superplasticizer (kg/m^3):13.5,Granular Squeleton (kg/m^3):1721.8], Property: [compressive strength Mpa:70.4]]
Sample9: [Composition: [water-cement ratio:0.44,superplasticizer (kg/m^3):13.5,Granular Squeleton (kg/m^3):1707.9], Property: [compressive strength Mpa:75.4]]
Sample10: [Composition: [water-cement ratio:0.47,superplasticizer (kg/m^3):13.5,Granular Squeleton (kg/m^3):1701.0], Property: [compressive strength Mpa:78.3]]
Sample11: [Composition: [water-cement ratio:0.6,superplasticizer (kg/m^3):5.25,Granular Squeleton (kg/m^3):1744.8], Property: [compressive strength Mpa:47.0]]
Sample12: [Composition: [water-cement ratio:0.63,superplasticizer (kg/m^3):5.25,Granular Squeleton (kg/m^3):1739.3], Property: [compressive strength Mpa:50.2]]
Sample13: [Composition: [water-cement ratio:0.67,superplasticizer (kg/m^3):5.25,Granular Squeleton (kg/m^3):1734.0], Property: [compressive strength Mpa:52.5]]
Sample14: [Composition: [water-cement ratio:0.71,superplasticizer (kg/m^3):5.25,Granular Squeleton (kg/m^3):1728.7], Property: [compressive strength Mpa:55.4]]
Sample15: [Composition: [water-cement ratio:0.42,superplasticizer (kg/m^3):13.5,Granular Squeleton (kg/m^3):1686.8], Property: [compressive strength Mpa:67.8]]
Sample16: [Composition: [water-cement ratio:0.44,superplasticizer (kg/m^3):13.5,Granular Squeleton (kg/m^3):1679.9], Property: [compressive strength Mpa:68.2]]
Sample17: [Composition: [water-cement ratio:0.47,superplasticizer (kg/m^3):13.5,Granular Squeleton (kg/m^3):1673.1], Property: [compressive strength Mpa:68.0]]
Sample18: [Composition: [water-cement ratio:0.6,superplasticizer (kg/m^3):5.25,Granular Squeleton (kg/m^3):1716.1], Property: [compressive strength Mpa:41.5]]
Sample19: [Composition: [water-cement ratio:0.63,superplasticizer (kg/m^3):5.25,Granular Squeleton (kg/m^3):1710.8], Property: [co

Note: data_set/Bachir/Bachir_description.txt
This experiment investigates the compressive strength of rubberized concrete. By varying the water/cement ratio, superplasticizer content, and Granular Squeleton, multiple rubberized concrete samples were prepared. The compressive strength of each sample was then measured.

Note: README.md
# MTL_in_MAT

## 多任务情况

UHPC为核心数据集
测试集划分有两种方式：
1. 单任务测试集：针对每个任务，划分出该任务没有缺失标签的样本中的一部分作为测试集
   - 训练阶段：分任务训练，与其他任务(标签)的样本进行合并，这样就得到了一个训练集，这个训练集中特征和标签还是有缺失的
   - 训练出的模型：
     - 输入：特征 + 其他任务的标签
     - 输出：当前任务的标签
   - 测试阶段：使用该任务的测试集进行评估
   - 问题是：测试集中没有其他任务的标签，怎么办？(需要想办法解决)

2. 多任务测试集：划分出所有任务都没有缺失标签的样本作为测试集
    - 训练阶段：使用其他样本作为训练集，这些样本中有缺失标签和缺失特征
    - 训练出的模型：
      - 输入：特征
      - 输出：所有任务的标签
    - 测试阶段：使用多任务测试集进行评估
    - 这样就能利用多个任务之间的关系进行预测
    - 缺点是：测试集会比较小，并且只能评估那些没有缺失标签的样本
    - 问题：取出测试集后，训练集不存在完整的数据，在一些不能直接处理缺失的模型上，无法提取到有效信息。
## 


数据集做标准化。 stancard scaler

from sklearn.preprocessing import StandardScaler

def scale_data(X: pd.DataFrame) -> pd.DataFrame:
    preproc = StandardScaler()
    cols = X.columns
    return pd.DataFrame(preproc.fit_transform(X), columns=cols)

随机种子固定，做5-10个，
先做一个，看看结果


都用XgBoost

File: Bachir.csv
water-cement ratio,superplasticizer (kg/m^3),Granular Squeleton (kg/m^3),compressive strength Mpa
0.42,13.5,1743.02,81
0.44,13.5,1735.97,82.7
0.47,13.5,1728.92,84
0.6,5.25,1773.4,53.8
0.63,5.25,1767.9,56.8
0.67,5.25,1762.4,57.7
0.71,5.25,1756.9,60.3
0.4,13.5,1721.8,70.4
0.44,13.5,1707.9,75.4
0.47,13.5,1701,78.3
0.6,5.25,1744.8,47
0.63,5.25,1739.3,50.2
0.67,5.25,1734,52.5
0.71,5.25,1728.7,55.4
0.42,13.5,1686.8,67.8
0.44,13.5,1679.9,68.2
0.47,13.5,1673.1,68
0.6,5.25,1716.1,41.5
0.63,5.25,1710.8,43.1
0.71,5.25,1700.2,49.3
0.4,13.5,1637,50.7
0.42,13.5,1630.5,55.3
0.44,13.5,1659.9,56.3
0.47,13.5,1617.3,55.6
0.6,5.25,1658.9,31.8
0.67,5.25,1648.6,37.6
0.71,5.25,1643.6,41.3
0.4,13.5,1580.6,40.3
0.42,13.5,1574.3,44.5
0.44,13.5,1567.7,45.1
0.47,13.5,1561.5,46.4
0.63,5.25,1596.6,28.8
0.67,5.25,1591.7,31.4
0.71,5.25,1586.8,32.8
0.4,13.5,1467.6,26.4
0.42,13.5,1461.7,29.6
0.44,13.5,1455.8,30.5
0.47,13.5,1449.8,31.8
0.6,5.25,1487.1,16.2
0.67,5.25,1477.9,20.1
0.71,5.25,1473.3,21.2
0.4,13.5,1185,10.5
0.42,13.5,1180.2,11.2
0.44,13.5,1175.4,11.6
0.47,13.5,1170.8,11.7
0.6,5.25,1200.8,7.1
0.67,5.25,1193.4,8.1
0.71,5.25,1189.7,8.4
0.5,13.5,1721.88,85.77
0.75,5.25,1751.5,59.7
0.5,13.5,1694.1,79.1
0.5,13.5,1666.3,69.4
0.75,5.25,1694.9,51.3
0.5,13.5,1610.7,61.7
0.75,5.25,1638.3,41.2
0.5,13.5,1555.1,47
0.75,5.25,1581.8,34.2
0.5,13.5,1443.9,31.8
0.75,5.25,1468.7,23.1
0.75,5.25,1186,8.6
0.4,1.8,1678.6,53.5
0.4,2.25,1652.7,49.7
0.4,2.7,1626.8,44.5
0.4,3.15,1601,40.7
0.4,3.6,1575.1,35.3
0.4,4.05,1549.2,34.34
0.4,4.5,1523.3,27
0.4,2.7,1623.2,43.77
0.4,3.15,1595.6,37.9
0.4,3.6,1567.9,33.75
0.4,4.05,1540.3,31
0.4,4.5,1512.5,25
0.4,3.15,1625.1,42.2
0.4,3.6,1571.4,36.13
0.4,3.55,1518,32.43
0.4,4.5,1464.4,26.1
0.4,5.4,1357.2,17
0.47,3.25,1600,52.5
0.47,3.25,1600,52.1
0.47,3.25,1600,51.2
0.47,3.25,1600,50.8
0.47,3.25,1420,28.1
0.47,3.25,1420,27.7
0.47,3.25,1420,28.3
0.47,3.25,1420,28.6
0.47,3.25,1335,21.5
0.47,3.25,1335,19.6
0.47,3.25,1335,19.1
0.5,1.52,1785,32
0.5,1.52,1788.4,33
0.5,1.52,1788.5,30
0.5,1.52,1790,25
0.5,1.52,1804,30
0.5,1.52,1813,27
0.5,1.52,1823,20
0.47,3.03,1839.9,63.7
0.47,3.29,1743.8,39.5
0.47,3.61,1695.7,26.3
0.47,3.99,1647.7,17.9
0.4,13.5,1750.02,75.8
0.42,13.5,1714.8,72.5
0.4,13.5,1693.5,62.8
0.67,5.25,1705.6,46.1
0.63,5.25,1653.8,35.8
0.6,5.25,1601.5,24.3
0.63,5.25,1482.4,18.2
0.63,5.25,1197.1,7.2
0.75,5.25,1723.3,56.4
0.5,13.5,1166,11.7
0.4,2.25,1651,47.2
0.4,4.95,1410.9,19.4
0.47,3.25,1335,20.2