Folder: MTL_in_MAT/data_set/huang

Note: data_set/huang/Huang_data_cs.txt
Sample1: [Composition: [Type of cement:1.0,water to cement ratio:0.45,Content of carbon nanotube (%):0.0,External diameter of carbon nanotube (nm):20.0,Length of carbon nanotube (μm):250.0,Functionalization method:2.0,Curing days:28.0,Curing temperature (℃):30.0,Dispersion method:1.0], Property: [Compressive strength MPa:52.3]]
Sample2: [Composition: [Type of cement:1.0,water to cement ratio:0.45,Content of carbon nanotube (%):0.5,External diameter of carbon nanotube (nm):20.0,Length of carbon nanotube (μm):250.0,Functionalization method:2.0,Curing days:28.0,Curing temperature (℃):30.0,Dispersion method:1.0], Property: [Compressive strength MPa:62.1]]
Sample3: [Composition: [Type of cement:1.0,water to cement ratio:0.2,Content of carbon nanotube (%):0.1,External diameter of carbon nanotube (nm):4.0,Length of carbon nanotube (μm):1.0,Functionalization method:1.0,Curing days:28.0,Curing temperature (℃):20.0,Dispersion method:2.0], Property: [Compressive strength MPa:101.2]]
Sample4: [Composition: [Type of cement:1.0,water to cement ratio:0.2,Content of carbon nanotube (%):0.5,External diameter of carbon nanotube (nm):4.0,Length of carbon nanotube (μm):1.0,Functionalization method:1.0,Curing days:28.0,Curing temperature (℃):20.0,Dispersion method:2.0], Property: [Compressive strength MPa:116.9]]
Sample5: [Composition: [Type of cement:1.0,water to cement ratio:0.2,Content of carbon nanotube (%):0.8,External diameter of carbon nanotube (nm):4.0,Length of carbon nanotube (μm):1.0,Functionalization method:1.0,Curing days:28.0,Curing temperature (℃):20.0,Dispersion method:2.0], Property: [Compressive strength MPa:74.1]]
Sample6: [Composition: [Type of cement:1.0,water to cement ratio:0.2,Content of carbon nanotube (%):0.1,External diameter of carbon nanotube (nm):20.0,Length of carbon nanotube (μm):1.0,Functionalization method:1.0,Curing days:28.0,Curing temperature (℃):20.0,Dispersion method:2.0], Property: [Compressive strength MPa:129.2]]
Sample7: [Composition: [Type of cement:1.0,water to cement ratio:0.2,Content of carbon nanotube (%):0.5,External diameter of carbon nanotube (nm):20.0,Length of carbon nanotube (μm):1.0,Functionalization method:1.0,Curing days:28.0,Curing temperature (℃):20.0,Dispersion method:2.0], Property: [Compressive strength MPa:136.4]]
Sample8: [Composition: [Type of cement:1.0,water to cement ratio:0.2,Content of carbon nanotube (%):0.8,External diameter of carbon nanotube (nm):20.0,Length of carbon nanotube (μm):1.0,Functionalization method:1.0,Curing days:28.0,Curing temperature (℃):20.0,Dispersion method:2.0], Property: [Compressive strength MPa:138.1]]
Sample9: [Composition: [Type of cement:1.0,water to cement ratio:0.2,Content of carbon nanotube (%):0.1,External diameter of carbon nanotube (nm):4.0,Length of carbon nanotube (μm):10.0,Functionalization method:1.0,Curing days:28.0,Curing temperature (℃):20.0,Dispersion method:2.0], Property: [Compressive strength MPa:116.2]]
Sample10: [Composition: [Type of cement:1.0,wate

Note: data_set/huang/Huang_data_fs.txt
Sample1: [Composition: [Type of cement:1.0,water to cement ratio:0.45,Content of carbon nanotube (%):0.0,External diameter of carbon nanotube (nm):20.0,Length of carbon nanotube (μm):250.0,Functionalization method:2.0,Curing days:28.0,Curing temperature (℃):30.0,Dispersion method:1.0], Property: [Flexural strength MPa:6.7]]
Sample2: [Composition: [Type of cement:1.0,water to cement ratio:0.45,Content of carbon nanotube (%):0.5,External diameter of carbon nanotube (nm):20.0,Length of carbon nanotube (μm):250.0,Functionalization method:2.0,Curing days:28.0,Curing temperature (℃):30.0,Dispersion method:1.0], Property: [Flexural strength MPa:8.4]]
Sample3: [Composition: [Type of cement:1.0,water to cement ratio:0.2,Content of carbon nanotube (%):0.1,External diameter of carbon nanotube (nm):4.0,Length of carbon nanotube (μm):1.0,Functionalization method:1.0,Curing days:28.0,Curing temperature (℃):20.0,Dispersion method:2.0], Property: [Flexural strength MPa:9.1]]
Sample4: [Composition: [Type of cement:1.0,water to cement ratio:0.2,Content of carbon nanotube (%):0.5,External diameter of carbon nanotube (nm):4.0,Length of carbon nanotube (μm):1.0,Functionalization method:1.0,Curing days:28.0,Curing temperature (℃):20.0,Dispersion method:2.0], Property: [Flexural strength MPa:10.6]]
Sample5: [Composition: [Type of cement:1.0,water to cement ratio:0.2,Content of carbon nanotube (%):0.8,External diameter of carbon nanotube (nm):4.0,Length of carbon nanotube (μm):1.0,Functionalization method:1.0,Curing days:28.0,Curing temperature (℃):20.0,Dispersion method:2.0], Property: [Flexural strength MPa:9.0]]
Sample6: [Composition: [Type of cement:1.0,water to cement ratio:0.2,Content of carbon nanotube (%):0.1,External diameter of carbon nanotube (nm):20.0,Length of carbon nanotube (μm):1.0,Functionalization method:1.0,Curing days:28.0,Curing temperature (℃):20.0,Dispersion method:2.0], Property: [Flexural strength MPa:13.5]]
Sample7: [Composition: [Type of cement:1.0,water to cement ratio:0.2,Content of carbon nanotube (%):0.5,External diameter of carbon nanotube (nm):20.0,Length of carbon nanotube (μm):1.0,Functionalization method:1.0,Curing days:28.0,Curing temperature (℃):20.0,Dispersion method:2.0], Property: [Flexural strength MPa:11.1]]
Sample8: [Composition: [Type of cement:1.0,water to cement ratio:0.2,Content of carbon nanotube (%):0.8,External diameter of carbon nanotube (nm):20.0,Length of carbon nanotube (μm):1.0,Functionalization method:1.0,Curing days:28.0,Curing temperature (℃):20.0,Dispersion method:2.0], Property: [Flexural strength MPa:11.9]]
Sample9: [Composition: [Type of cement:1.0,water to cement ratio:0.2,Content of carbon nanotube (%):0.1,External diameter of carbon nanotube (nm):4.0,Length of carbon nanotube (μm):10.0,Functionalization method:1.0,Curing days:28.0,Curing temperature (℃):20.0,Dispersion method:2.0], Property: [Flexural strength MPa:12.9]]
Sample10: [Composition: [Type of cement:1.0,water to cement ratio:0.2,Content of carb

Note: data_set/huang/Huang_data_fs_description.txt
This experiment focuses on carbon nanotube (CNT)-reinforced cement composites. By systematically adjusting nine key parameters—including cement type, water-to-cement ratio, CNT content, external diameter, length, functionalization method, curing age, curing temperature, and dispersion method—multiple groups of samples with different compositions and processing conditions were prepared. The flexural strength of each sample was measured. Specifically, cement type 1 refers to ordinary Portland cement with Class 42.5 R, and cement type 2 refers to Portland cement with Class 52.5 R. For the functionalization method: 1 indicates no functionalization, 2 indicates functionalization in carboxyl solution, 3 indicates functionalization in hydroxyl solution, and 4 indicates functionalization in other acid solutions. For the dispersion method: 1 indicates no dispersion, 2 indicates sonication in polycarboxylate solution, 3 indicates sonication in TNWDIS (an aromatic modified polyethylene glycol ether), 4 indicates sonication in gum arabic, and 5 indicates sonication in water.

Note: README.md
# MTL_in_MAT

## 多任务情况

UHPC为核心数据集
测试集划分有两种方式：
1. 单任务测试集：针对每个任务，划分出该任务没有缺失标签的样本中的一部分作为测试集
   - 训练阶段：分任务训练，与其他任务(标签)的样本进行合并，这样就得到了一个训练集，这个训练集中特征和标签还是有缺失的
   - 训练出的模型：
     - 输入：特征 + 其他任务的标签
     - 输出：当前任务的标签
   - 测试阶段：使用该任务的测试集进行评估
   - 问题是：测试集中没有其他任务的标签，怎么办？(需要想办法解决)

2. 多任务测试集：划分出所有任务都没有缺失标签的样本作为测试集
    - 训练阶段：使用其他样本作为训练集，这些样本中有缺失标签和缺失特征
    - 训练出的模型：
      - 输入：特征
      - 输出：所有任务的标签
    - 测试阶段：使用多任务测试集进行评估
    - 这样就能利用多个任务之间的关系进行预测
    - 缺点是：测试集会比较小，并且只能评估那些没有缺失标签的样本
    - 问题：取出测试集后，训练集不存在完整的数据，在一些不能直接处理缺失的模型上，无法提取到有效信息。
## 


数据集做标准化。 stancard scaler

from sklearn.preprocessing import StandardScaler

def scale_data(X: pd.DataFrame) -> pd.DataFrame:
    preproc = StandardScaler()
    cols = X.columns
    return pd.DataFrame(preproc.fit_transform(X), columns=cols)

随机种子固定，做5-10个，
先做一个，看看结果


都用XgBoost

File: Huang_data_cs.csv
Type of cement,water to cement ratio,Content of carbon nanotube (%),External diameter of carbon nanotube (nm),Length of carbon nanotube (¦Ìm),Functionalization method,Curing days,Curing temperature (¡æ),Dispersion method,Compressive strength MPa
1,0.45,0,20,250,2,28,30,1,52.3
1,0.45,0.5,20,250,2,28,30,1,62.1
1,0.2,0.1,4,1,1,28,20,2,101.2
1,0.2,0.5,4,1,1,28,20,2,116.9
1,0.2,0.8,4,1,1,28,20,2,74.1
1,0.2,0.1,20,1,1,28,20,2,129.2
1,0.2,0.5,20,1,1,28,20,2,136.4
1,0.2,0.8,20,1,1,28,20,2,138.1
1,0.2,0.1,4,10,1,28,20,2,116.2
1,0.2,0.5,4,10,1,28,20,2,107.6
1,0.2,0.8,4,10,1,28,20,2,113.2
1,0.2,0.1,20,10,1,28,20,2,124.6
1,0.2,0.5,20,10,1,28,20,2,110.7
1,0.2,0.8,20,10,1,28,20,2,121.9
1,0.2,0.1,4,1,3,28,20,2,90.8
1,0.2,0.5,4,1,3,28,20,2,152.1
1,0.2,0.8,4,1,3,28,20,2,93.2
1,0.2,0.1,4,1,2,28,20,2,94.5
1,0.2,0.5,4,1,2,28,20,2,134.8
1,0.2,0.8,4,1,2,28,20,2,82.9
1,0.2,0.1,4,10,3,28,20,2,122.6
1,0.2,0.5,4,10,3,28,20,2,154.4
1,0.2,0.8,4,10,3,28,20,2,120.4
1,0.2,0.1,4,10,2,28,20,2,129.1
1,0.2,0.5,4,10,2,28,20,2,139.1
1,0.2,0.8,4,10,2,28,20,2,141.5
1,0.33,0,40,10,1,28,20,3,84.8
1,0.33,0.025,40,10,1,28,20,3,90.1
1,0.33,0.05,40,10,1,28,20,3,95.6
1,0.33,0.1,40,10,1,28,20,3,97.2
1,0.35,0,30,10,1,28,25,4,77.4
1,0.35,0.05,30,10,1,28,25,4,82.9
1,0.35,0.08,30,10,1,28,25,4,83.1
1,0.35,0.1,30,10,1,28,25,4,84.5
1,0.35,0.12,30,10,1,28,25,4,80.8
1,0.35,0.15,30,10,1,28,25,4,73
1,0.4,0.5,20,500,5,28,30,5,69.4
1,0.4,0.5,20,500,1,28,30,5,72.1
1,0.4,0.03,20,30,1,3,25,2,43.1
1,0.4,0.03,30,30,1,3,25,2,40.1
1,0.4,0.03,50,30,1,3,25,2,39.6
1,0.4,0.03,20,30,1,7,25,2,56.7
1,0.4,0.03,30,30,1,7,25,2,56
1,0.4,0.03,50,30,1,7,25,2,53.2
1,0.4,0.03,20,30,1,28,25,2,72.2
1,0.4,0.03,30,30,1,28,25,2,73.6
1,0.4,0.03,50,30,1,28,25,2,68.6
1,0.4,0.08,20,30,1,3,25,2,43.8
1,0.4,0.08,30,30,1,3,25,2,42.4
1,0.4,0.08,50,30,1,3,25,2,39.4
1,0.4,0.08,20,30,1,7,25,2,52.5
1,0.4,0.08,30,30,1,7,25,2,52.5
1,0.4,0.08,50,30,1,7,25,2,43.6
1,0.4,0.08,20,30,1,28,25,2,65.6
1,0.4,0.08,30,30,1,28,25,2,64.9
1,0.4,0.08,50,30,1,28,25,2,63.5
1,0.4,0.15,20,30,1,3,25,2,35.2
1,0.4,0.15,30,30,1,3,25,2,43.2
1,0.4,0.15,50,30,1,3,25,2,35.7
1,0.4,0.15,20,30,1,7,25,2,63.9
1,0.4,0.15,30,30,1,7,25,2,56.9
1,0.4,0.15,50,30,1,7,25,2,58.3
1,0.4,0.15,20,30,1,28,25,2,82.2
1,0.4,0.15,30,30,1,28,25,2,78
1,0.4,0.15,50,30,1,28,25,2,81
1,0.4,0.25,20,30,1,3,25,2,44
1,0.4,0.25,30,30,1,3,25,2,40.7
1,0.4,0.25,50,30,1,3,25,2,41.2
1,0.4,0.25,20,30,1,7,25,2,62.4
1,0.4,0.25,30,30,1,7,25,2,59.4
1,0.4,0.25,50,30,1,7,25,2,57.3
1,0.4,0.25,20,30,1,28,25,2,84.1
1,0.4,0.25,30,30,1,28,25,2,82.5
1,0.4,0.25,50,30,1,28,25,2,82
1,0.4,0.03,20,1,1,3,25,2,42
1,0.4,0.08,20,1,1,3,25,2,39.5
1,0.4,0.15,20,1,1,3,25,2,40.4
1,0.4,0.25,20,1,1,3,25,2,42.1
1,0.4,0.03,20,1,1,7,25,2,58.7
1,0.4,0.08,20,1,1,7,25,2,51.4
1,0.4,0.15,20,1,1,7,25,2,58
1,0.4,0.25,20,1,1,7,25,2,64
1,0.4,0.03,20,1,1,28,25,2,74.7
1,0.4,0.08,20,1,1,28,25,2,64.3
1,0.4,0.15,20,1,1,28,25,2,74.9
1,0.4,0.25,20,1,1,28,25,2,81.8
2,0.5,0,4,2,1,7,20,1,36.9
2,0.5,0.05,4,2,1,7,20,1,35.1
2,0.5,0.1,4,2,1,7,20,1,32
2,0.5,0.25,4,2,1,7,20,1,35.4
2,0.5,0.5,4,2,1,7,20,1,27.3
2,0.5,0,4,2,1,28,20,1,49.7
2,0.5,0.05,4,2,1,28,20,1,57.3
2,0.5,0.1,4,2,1,28,20,1,52.3
2,0.5,0.25,4,2,1,28,20,1,54
2,0.5,0.5,4,2,1,28,20,1,52
1,0.45,0,10,10,1,28,23,5,53.9
1,0.45,0.044,10,10,1,28,23,5,56.2
1,0.45,0.088,10,10,1,28,23,5,54.9
1,0.45,0.1,10,10,1,28,23,5,58.2
1,0.45,0.2,10,10,1,28,23,5,54.9
1,0.45,0.3,10,10,1,28,23,5,56.2
1,0.45,0.044,10,10,2,28,23,5,55.3
1,0.45,0.088,10,10,2,28,23,5,55.3
1,0.45,0.1,10,10,2,28,23,5,55.6
1,0.45,0.2,10,10,2,28,23,5,54.3
1,0.45,0.3,10,10,2,28,23,5,49.7
1,0.4,0,10,30,1,28,23,2,74.9
1,0.4,0.03,10,30,1,28,23,2,82.2
1,0.4,0.08,10,30,1,28,23,2,80
1,0.4,0.15,10,30,1,28,23,2,86
1,0.4,0.25,10,30,1,28,23,2,91.4
1,0.4,0.35,10,30,1,28,23,2,89.8
1,0.4,0.5,10,30,1,28,23,2,94.3

File: Huang_data_fs.csv
Type of cement,water to cement ratio,Content of carbon nanotube (%),External diameter of carbon nanotube (nm),Length of carbon nanotube (¦Ìm),Functionalization method,Curing days,Curing temperature (¡æ),Dispersion method,Flexural strength MPa
1,0.45,0,20,250,2,28,30,1,6.7
1,0.45,0.5,20,250,2,28,30,1,8.4
1,0.2,0.1,4,1,1,28,20,2,9.1
1,0.2,0.5,4,1,1,28,20,2,10.6
1,0.2,0.8,4,1,1,28,20,2,9
1,0.2,0.1,20,1,1,28,20,2,13.5
1,0.2,0.5,20,1,1,28,20,2,11.1
1,0.2,0.8,20,1,1,28,20,2,11.9
1,0.2,0.1,4,10,1,28,20,2,12.9
1,0.2,0.5,4,10,1,28,20,2,11.9
1,0.2,0.8,4,10,1,28,20,2,12.4
1,0.2,0.1,20,10,1,28,20,2,12.6
1,0.2,0.5,20,10,1,28,20,2,12
1,0.2,0.8,20,10,1,28,20,2,12.6
1,0.2,0.1,4,1,3,28,20,2,11
1,0.2,0.5,4,1,3,28,20,2,15.3
1,0.2,0.8,4,1,3,28,20,2,7.8
1,0.2,0.1,4,1,2,28,20,2,10.3
1,0.2,0.5,4,1,2,28,20,2,13.4
1,0.2,0.8,4,1,2,28,20,2,9.7
1,0.2,0.1,4,10,3,28,20,2,9.1
1,0.2,0.5,4,10,3,28,20,2,10.8
1,0.2,0.8,4,10,3,28,20,2,11
1,0.2,0.1,4,10,2,28,20,2,13
1,0.2,0.5,4,10,2,28,20,2,11.7
1,0.2,0.8,4,10,2,28,20,2,13.4
1,0.33,0,40,10,1,28,20,3,4
1,0.33,0.025,40,10,1,28,20,3,4.3
1,0.33,0.05,40,10,1,28,20,3,4.6
1,0.33,0.1,40,10,1,28,20,3,5.2
1,0.35,0,30,10,1,28,25,4,11
1,0.35,0.05,30,10,1,28,25,4,11.7
1,0.35,0.08,30,10,1,28,25,4,15.8
1,0.35,0.1,30,10,1,28,25,4,15
1,0.35,0.12,30,10,1,28,25,4,13.1
1,0.35,0.15,30,10,1,28,25,4,10.5
1,0.4,0.5,20,500,5,28,30,5,9.6
1,0.4,0.5,20,500,1,28,30,5,10
1,0.4,0.03,20,30,1,3,25,2,8.7
1,0.4,0.03,30,30,1,3,25,2,7.7
1,0.4,0.03,50,30,1,3,25,2,7.6
1,0.4,0.03,20,30,1,7,25,2,9.8
1,0.4,0.03,30,30,1,7,25,2,8.6
1,0.4,0.03,50,30,1,7,25,2,9.2
1,0.4,0.03,20,30,1,28,25,2,12.7
1,0.4,0.03,30,30,1,28,25,2,11.5
1,0.4,0.03,50,30,1,28,25,2,9.8
1,0.4,0.08,20,30,1,3,25,2,6.3
1,0.4,0.08,30,30,1,3,25,2,7.1
1,0.4,0.08,50,30,1,3,25,2,6.9
1,0.4,0.08,20,30,1,7,25,2,8.5
1,0.4,0.08,30,30,1,7,25,2,8.4
1,0.4,0.08,50,30,1,7,25,2,8.3
1,0.4,0.08,20,30,1,28,25,2,11.8
1,0.4,0.08,30,30,1,28,25,2,10.5
1,0.4,0.08,50,30,1,28,25,2,10.7
1,0.4,0.15,20,30,1,3,25,2,7.4
1,0.4,0.15,30,30,1,3,25,2,7.4
1,0.4,0.15,50,30,1,3,25,2,9
1,0.4,0.15,20,30,1,7,25,2,11
1,0.4,0.15,30,30,1,7,25,2,9.4
1,0.4,0.15,50,30,1,7,25,2,10.4
1,0.4,0.15,20,30,1,28,25,2,13.2
1,0.4,0.15,30,30,1,28,25,2,11.4
1,0.4,0.15,50,30,1,28,25,2,12
1,0.4,0.25,20,30,1,3,25,2,7.4
1,0.4,0.25,30,30,1,3,25,2,7.4
1,0.4,0.25,50,30,1,3,25,2,8.8
1,0.4,0.25,20,30,1,7,25,2,11
1,0.4,0.25,30,30,1,7,25,2,9.4
1,0.4,0.25,50,30,1,7,25,2,10.4
1,0.4,0.25,20,30,1,28,25,2,13.2
1,0.4,0.25,30,30,1,28,25,2,11.7
1,0.4,0.25,50,30,1,28,25,2,12
1,0.4,0.03,20,1,1,3,25,2,7.7
1,0.4,0.08,20,1,1,3,25,2,7
1,0.4,0.15,20,1,1,3,25,2,8.6
1,0.4,0.25,20,1,1,3,25,2,9.9
1,0.4,0.03,20,1,1,7,25,2,10.1
1,0.4,0.08,20,1,1,7,25,2,7.7
1,0.4,0.15,20,1,1,7,25,2,10.5
1,0.4,0.25,20,1,1,7,25,2,11.8
1,0.4,0.03,20,1,1,28,25,2,12.1
1,0.4,0.08,20,1,1,28,25,2,10.1
1,0.4,0.15,20,1,1,28,25,2,12.8
1,0.4,0.25,20,1,1,28,25,2,14.8
2,0.5,0,4,2,1,7,20,1,7.6
2,0.5,0.05,4,2,1,7,20,1,6.5
2,0.5,0.1,4,2,1,7,20,1,6
2,0.5,0.25,4,2,1,7,20,1,5.7
2,0.5,0.5,4,2,1,7,20,1,6.7
2,0.5,0,4,2,1,28,20,1,7.8
2,0.5,0.05,4,2,1,28,20,1,7.9
2,0.5,0.1,4,2,1,28,20,1,7.5
2,0.5,0.25,4,2,1,28,20,1,7.4
2,0.5,0.5,4,2,1,28,20,1,7.5
1,0.45,0,10,10,1,28,23,5,11.6
1,0.45,0.044,10,10,1,28,23,5,11.6
1,0.45,0.088,10,10,1,28,23,5,11.4
1,0.45,0.1,10,10,1,28,23,5,11
1,0.45,0.2,10,10,1,28,23,5,12
1,0.45,0.3,10,10,1,28,23,5,12.5
1,0.45,0.044,10,10,2,28,23,5,10.7
1,0.45,0.088,10,10,2,28,23,5,10.9
1,0.45,0.1,10,10,2,28,23,5,11.2
1,0.45,0.2,10,10,2,28,23,5,12.3
1,0.45,0.3,10,10,2,28,23,5,12.4
1,0.4,0,10,30,1,28,23,2,10.5
1,0.4,0.03,10,30,1,28,23,2,11.1
1,0.4,0.08,10,30,1,28,23,2,10.7
1,0.4,0.15,10,30,1,28,23,2,13.5
1,0.4,0.25,10,30,1,28,23,2,16.3
1,0.4,0.35,10,30,1,28,23,2,16.4
1,0.4,0.5,10,30,1,28,23,2,16.9